SamplingTime, AccelerationX, AccelerationY, AccelerationZ, GyroX, GyroY, GyroZ, MagneticFieldX, MagneticFieldY, MagneticFieldZ
1607733814.1202931, -0.060005, -3.690063, -8.886828, -0.555896, 0.247031, -0.007253, 192.771835, -54.843979, -853.298401
1607733814.159082, 0.582838, -3.497480, -10.024822, -1.203085, 0.372608, -0.288742, 193.867874, -53.559296, -852.873901
1607733814.221262, 0.281169, -3.253720, -8.023419, -1.215578, 1.238695, -0.135445, 192.906555, -51.582779, -852.910706
1607733814.288156, 1.301249, -1.043872, -9.865458, -0.928191, -0.924168, 0.365174, 193.061295, -47.107422, -849.398682
1607733814.368943, 1.885135, -2.220323, -8.957756, -0.650954, 0.147736, 0.400463, 196.016037, -48.746979, -847.385010
1607733814.454368, 0.164152, -2.292897, -8.672846, 1.274801, 0.664705, -0.144582, 191.952972, -46.854919, -847.622437
1607733814.5657902, -1.104625, -0.908450, -8.207323, 0.298883, -0.586106, -0.253845, 191.653030, -47.717957, -848.824036
1607733814.6408849, 0.470311, -2.223914, -8.252364, -0.227455, 0.933730, 0.010545, 191.230164, -49.165634, -849.846069
1607733814.714386, 0.149638, -1.603517, -9.460239, -0.013500, -0.254399, -0.195046, 191.784470, -48.803665, -849.537537
1607733814.782442, 0.885106, -1.667113, -9.776274, -0.054745, 0.269105, 0.018761, 192.433090, -47.855347, -848.026123
1607733814.85181, 0.151733, -1.403750, -9.392453, -0.344435, -0.117503, -0.016728, 191.877457, -47.496475, -847.902466
1607733814.919949, 0.951246, -1.634940, -9.743204, -0.066666, -0.613008, -0.028614, 192.904816, -47.153778, -847.371155
1607733814.988415, 0.536600, -1.318607, -10.377368, 0.038542, 0.008531, -0.001954, 192.744904, -45.956390, -847.292358
1607733815.0568519, 0.318878, -0.975637, -10.262446, -0.177288, 0.044006, 0.075119, 190.818130, -45.534943, -847.716858
1607733815.1168919, 0.361375, -1.025167, -10.027066, -0.156821, 0.468840, 0.126190, 191.541885, -45.658356, -847.510864
1607733815.186239, 0.295534, -1.212663, -9.784953, -0.013030, 0.449933, 0.089003, 191.411591, -45.612244, -846.672913
1607733815.259157, 0.317531, -1.147571, -9.824756, 0.153744, 0.036992, -0.010937, 192.532074, -45.403290, -845.735474
1607733815.354881, 0.341323, -0.929698, -9.594913, -0.031437, 0.237272, 0.088046, 191.996872, -45.659500, -846.805237
1607733815.426065, 0.641047, -0.791284, -10.051008, 0.086982, 0.199660, -0.022344, 192.228149, -45.717834, -846.279480
1607733815.497134, 0.379930, -1.073650, -9.650279, -0.041685, 0.072725, 0.040547, 192.758667, -45.659363, -845.890991
1607733815.563, 0.678158, -1.049857, -9.653421, -0.036143, 0.122333, 0.014433, 192.111465, -45.873260, -845.581970
1607733815.6462169, 0.855329, -1.005265, -9.753080, 0.015454, 0.443360, 0.129425, 193.072021, -45.850449, -845.955688
1607733815.71736, 0.708534, -0.746841, -9.943718, -0.312432, 0.208372, 0.088223, 193.493286, -46.316422, -845.568970
1607733815.78737, 0.818967, -1.234810, -9.728390, 0.046759, 0.114048, -0.024540, 192.606201, -46.384735, -844.608643
1607733815.8573918, 0.811185, -0.619949, -9.071630, -0.108581, 0.059506, -0.012947, 193.411087, -45.655457, -844.584778
1607733815.92751, 0.834978, -0.654216, -9.647735, -0.257782, 0.023211, 0.046599, 193.205765, -45.143555, -845.098572
1607733815.997463, 0.837073, -0.599149, -9.811438, 0.222260, 0.114219, 0.032696, 193.584183, -45.189362, -844.409790
1607733816.063473, 0.813131, -0.360327, -9.970054, -0.193197, 0.199292, 0.095456, 193.446503, -45.189133, -844.826416
1607733816.136549, 1.062726, -0.413598, -9.835081, 0.553643, -0.048723, -0.104550, 193.838760, -45.636230, -844.779602
1607733816.207508, 0.542586, -0.700304, -9.454403, -0.388076, 0.117674, 0.158454, 192.416916, -45.644073, -845.151184
1607733816.2802958, 0.662446, -0.691775, -9.628581, 0.117950, 0.080166, -0.044404, 193.602264, -45.828247, -845.098145
1607733816.349056, 0.525527, -0.569371, -9.862764, -0.025064, -0.326550, 0.074067, 193.152725, -45.543716, -845.728394
1607733816.420333, 0.646285, -0.617854, -9.873688, -0.516871, -1.122202, 0.007910, 191.996750, -45.564255, -845.432556
1607733816.491636, -0.494403, -0.306458, -9.892841, 0.632550, -2.327053, -0.475154, 190.675659, -44.780807, -847.230042
1607733816.566107, -1.269077, 0.073023, -9.716419, 0.390453, -2.779061, 0.032539, 187.785172, -44.100266, -850.068970
1607733816.6366482, -2.806902, -0.411354, -9.594913, 0.126237, -1.769285, -0.377367, 181.119034, -45.010056, -855.065613
1607733816.700844, -5.451448, -1.269226, -7.841010, -0.179038, -1.948630, 0.036636, 170.790176, -46.162430, -858.434448
1607733816.7843208, -6.357354, -1.331475, -6.038925, 0.295206, -1.147426, -0.146191, 165.719742, -45.098328, -859.276611
1607733816.855931, -7.211485, -0.927604, -6.436362, 0.163303, -1.173113, 0.119243, 162.643524, -45.036163, -858.947144
1607733816.926774, -7.472303, -1.635389, -5.206192, -0.127676, -0.167657, 0.468735, 157.622223, -45.915085, -858.893677
1607733816.997915, -8.150162, -1.178097, -5.077653, -0.007271, -0.859482, 0.000556, 156.710846, -45.708069, -857.831238
1607733817.057158, -8.570494, -0.548871, -5.317223, -0.074865, -0.326574, 0.229443, 155.259323, -45.399887, -857.389404
1607733817.127938, -8.961198, -0.371550, -4.171148, 0.125132, -0.426300, 0.030368, 153.644501, -45.465500, -856.298462
1607733817.2115211, -9.035268, -0.613813, -3.717297, -0.007566, -0.361384, 0.012664, 152.741074, -45.461304, -856.606018
1607733817.283224, -8.960898, -0.293739, -3.446453, 0.067140, -0.316986, 0.029321, 151.380737, -45.920685, -855.435425
1607733817.3527222, -9.111284, -0.555006, -3.070115, 0.019214, -0.159902, 0.002425, 148.838623, -46.479080, -854.681396
1607733817.423027, -9.469816, -0.515950, -3.211672, -0.013663, -0.174833, -0.027572, 148.094101, -46.575012, -854.247742
1607733817.492175, -9.139566, -0.654964, -2.752135, -0.028932, 0.018543, 0.062972, 148.187332, -46.881561, -854.013306
1607733817.563678, -9.421932, -0.109385, -2.905962, 0.054099, -0.106174, 0.030487, 146.726288, -47.487701, -853.348145
1607733817.621032, -9.333945, -0.624288, -2.518850, 0.146539, -0.115054, -0.069573, 146.493759, -47.789841, -853.093018
1607733817.691263, -9.560646, -0.229394, -2.694075, 0.020034, 0.012141, 0.095268, 145.530441, -47.960480, -852.981079
1607733817.7768621, -9.444826, -0.541538, -2.417545, 0.106141, -0.062995, -0.022110, 146.056519, -48.706573, -852.313599
1607733817.848505, -9.442282, -0.623540, -2.195782, 0.099969, 0.063125, 0.086300, 145.199951, -49.054855, -852.207214
1607733817.907037, -9.508871, -0.266654, -2.303970, 0.135205, 0.175644, 0.030189, 144.523468, -49.689850, -851.679321
1607733817.978795, -9.546580, -0.439935, -2.195333, 0.086460, 0.403546, 0.125300, 143.479279, -50.679489, -851.046082
1607733818.050317, -9.456049, -0.407014, -2.190545, 0.253405, 1.406978, -0.205023, 144.631058, -50.982468, -851.062622
1607733818.12205, -9.118467, -0.514604, -2.332701, 0.147716, 5.430273, 0.292289, 144.896011, -51.376419, -851.601257
1607733818.19483, -8.200590, -0.716614, -3.869628, 1.481909, 3.502625, -1.156520, 149.398590, -53.013504, -854.289917
1607733818.26959, -6.479009, -0.132130, -7.226000, -1.009401, 3.110370, -0.349678, 162.124847, -54.381165, -857.320557
1607733818.3447928, -4.526837, -2.905813, -6.314557, -0.822831, 3.897187, -0.164726, 172.150162, -60.214493, -857.373108
1607733818.420105, -2.466177, -1.335665, -9.474754, -0.841077, 4.713011, -0.047315, 181.179520, -57.762283, -854.359741
1607733818.4866219, 0.889745, -0.696264, -10.583568, 0.370138, 0.912447, -0.257222, 191.703140, -56.340973, -845.859375
1607733818.562594, 2.894440, -0.838419, -9.324368, -0.161853, 1.526605, -0.290103, 196.590683, -55.125580, -840.926636
1607733818.6558099, 3.741239, -0.685939, -8.874707, 0.256687, 0.688434, -0.295600, 198.298416, -53.833603, -837.979065
1607733818.731153, 4.267964, -0.482581, -9.037363, 0.140255, 0.797191, -0.160854, 199.364807, -51.848480, -835.451660
1607733818.805982, 4.787505, -0.551115, -8.361749, 0.074121, 0.712658, -0.285052, 199.384888, -50.573654, -833.322449
1607733818.8805351, 5.490503, -0.663044, -8.022072, -0.320128, 1.335336, -0.253063, 200.696274, -48.125702, -830.395386
1607733818.956289, 5.932981, -0.369306, -7.240515, -0.135390, 0.714807, -0.219865, 201.020554, -46.006226, -827.308594
1607733819.034631, 6.757784, -0.367809, -6.773795, 0.178623, 0.045349, -0.063783, 201.823471, -44.650772, -824.032349
1607733819.113292, 7.214179, -0.159214, -6.747160, 0.113996, 0.144410, -0.029986, 200.769852, -44.179535, -822.356079
1607733819.193845, 7.451354, -0.128688, -6.895151, -0.130517, 0.115152, -0.154724, 201.521545, -43.781494, -821.760254
1607733819.269062, 6.873903, -0.159663, -6.836942, 0.129402, -0.341195, -0.066035, 201.610382, -43.994644, -821.422913
1607733819.3448582, 6.811653, -0.062100, -7.011120, 0.119713, -0.396857, -0.136708, 201.772324, -43.687073, -821.144287
1607733819.405941, 6.258593, -0.105794, -7.399580, 0.702612, -1.392563, -0.101098, 202.804382, -44.225693, -822.995972
1607733819.499182, 6.024111, -0.286257, -8.070704, 0.754238, -1.951257, -0.040097, 202.498947, -44.542603, -824.689026
1607733819.5771608, 5.032462, -1.162235, -8.375366, 0.580876, -1.747793, 0.141720, 202.493179, -45.146835, -830.056580
1607733819.655905, 4.469825, -0.364966, -9.132533, -0.373418, -3.996285, 0.137592, 200.455780, -45.322342, -835.748230
1607733819.716227, 3.656395, -1.643470, -10.426299, 0.605759, -4.396225, 1.058086, 197.730087, -46.145767, -843.549927
1607733819.7931209, -1.393126, -0.374393, -10.146028, 1.312783, -5.050467, 0.243381, 189.965393, -42.888245, -851.200134
1607733819.8900619, -3.029413, -1.848773, -9.903166, 0.065905, -0.925340, 0.269365, 177.281052, -47.994370, -860.077515
1607733819.9528809, -4.566191, -0.971747, -8.817097, 0.045773, -0.273107, 0.363786, 173.259247, -47.831421, -860.723267
1607733820.032335, -6.008399, -1.427992, -7.323713, -0.012117, -0.538502, 0.496377, 169.434830, -48.960083, -861.500183
1607733820.128242, -6.799383, -1.226729, -6.731897, 0.202109, -0.876019, 0.262137, 167.880569, -49.733612, -860.867065
1607733820.206277, -7.426365, -0.861613, -6.216545, 0.114540, 0.079721, 0.257117, 166.239410, -49.696655, -860.706787
1607733820.286199, -7.619996, -0.267552, -6.390274, -0.006193, -0.147522, 0.169570, 163.429047, -48.531555, -859.870911
1607733820.364653, -7.687333, -0.653467, -5.327997, 0.030859, -0.072027, 0.162845, 162.822952, -47.870041, -859.861084
1607733820.44349, -7.937826, -0.355838, -5.534197, 0.044385, 0.320807, 0.180925, 162.502960, -47.320358, -859.375122
1607733820.520508, -7.648876, -0.201412, -5.595997, -0.002092, 0.322023, 0.213199, 161.919495, -47.417313, -858.234741
1607733820.598511, -8.046912, -0.391602, -5.183447, 0.130144, 0.131017, 0.195827, 160.626053, -48.007095, -857.143311
1607733820.67807, -8.036587, 0.061800, -5.616348, 0.069105, 0.383259, 0.194960, 161.147064, -48.677917, -856.222107
1607733820.7553349, -7.576302, -0.018705, -5.812673, 0.020724, 0.671343, 0.257509, 160.876724, -49.906906, -855.408813
1607733820.8333712, -7.823054, -0.064494, -5.860407, 0.124612, 0.440299, 0.067110, 160.655304, -51.273773, -854.547791
1607733820.911273, -8.140884, -0.057461, -6.483049, 0.170554, 1.578412, 0.085501, 160.377380, -52.420395, -853.724121
1607733820.987716, -7.119907, 0.049530, -6.664560, 0.033878, 2.646043, -0.166065, 162.832840, -53.985413, -854.150452
1607733821.0654202, -6.440552, -0.069133, -7.095965, -0.072737, 2.665532, -0.237755, 166.008347, -55.562210, -854.978088
1607733821.1423512, -5.023334, 0.723498, -9.021352, -0.059131, 3.782296, -0.060376, 173.671539, -55.352829, -854.935303
1607733821.219434, -2.841768, 0.244657, -8.990377, -0.413278, 3.378426, -0.276336, 180.606766, -55.377823, -852.760620
1607733821.297163, -1.218649, 0.309151, -9.777471, -0.644148, 4.068153, 0.039857, 186.238266, -54.664291, -850.501953
1607733821.3572512, 1.204283, 0.707487, -9.172336, 0.143864, 2.236820, -0.104446, 192.359863, -53.759537, -844.294983
1607733821.4375849, 4.266767, 0.907103, -9.120262, 0.039338, 2.060453, 0.122518, 198.474976, -51.828979, -834.766724
1607733821.516846, 6.148310, 0.896180, -7.670274, 0.176561, 1.086929, -0.165464, 200.852966, -50.844437, -827.659607
1607733821.597155, 7.015011, 0.698059, -6.200384, 0.197626, 0.689336, -0.210691, 201.270935, -48.094528, -820.704346
1607733821.700508, 7.881562, 0.865205, -6.093991, -0.085065, 0.396965, -0.147643, 201.064484, -45.832138, -817.372803
1607733821.779371, 8.082974, 0.848146, -5.694160, 0.335496, -0.331388, -0.090676, 200.550064, -44.775711, -815.381409
1607733821.859558, 8.400356, 0.629825, -5.767931, 0.193816, 0.127383, -0.076773, 200.007370, -44.382187, -813.713379
1607733821.938088, 8.049306, 0.735618, -5.546467, 0.315042, -0.233945, -0.079117, 200.951080, -44.377731, -814.366516
1607733821.997642, 7.842656, 0.558298, -5.633706, 0.493632, -1.377222, -0.139664, 201.729080, -44.113174, -814.795654
1607733822.096614, 7.415591, 0.652121, -6.658574, 0.099912, -1.517475, -0.261601, 202.451340, -44.428741, -817.394287
1607733822.1764, 6.239888, 0.314538, -6.566547, 0.415949, -1.517816, 0.042835, 202.543228, -44.699799, -823.388794
1607733822.256422, 6.275651, 0.635810, -8.068909, 0.004526, -0.861338, -0.018759, 201.929810, -44.090347, -828.789917
1607733822.335923, 5.277269, 0.259921, -9.040206, -0.151482, -0.943442, 0.064169, 201.537399, -43.769897, -831.351929
1607733822.415588, 4.273500, -0.186299, -9.535956, 3.862321, 0.025781, 1.994229, 200.725128, -43.867233, -833.700012
1607733822.497597, 4.140622, 0.824503, -17.678037, 8.097744, -1.773545, 1.157251, 198.907364, -45.932388, -839.124268
1607733822.5789661, -0.048034, -3.235464, -4.330512, 1.382338, 0.023147, 0.240124, 200.635620, -62.825119, -842.893677
1607733822.6617122, 1.285986, -6.713940, -5.912331, 1.228696, -0.693374, 0.553379, 197.272873, -71.244614, -843.348145
1607733822.745686, 1.384746, -8.093449, -5.052514, 0.730855, -0.161410, 0.414091, 196.074265, -73.948288, -842.580383
1607733822.826171, 0.282665, -8.592042, -4.339191, 0.775272, -0.112919, 0.411342, 192.982193, -77.361893, -841.874207
1607733822.907901, 0.880917, -8.529643, -4.194492, 0.652939, -0.099752, 0.270721, 192.606308, -79.180038, -841.529541
1607733822.96848, -0.059705, -9.145102, -2.546084, -0.051262, 0.307346, 0.161830, 191.094543, -80.962036, -840.419678
1607733823.07114, -0.229694, -8.929923, -2.186954, -0.580641, 0.428892, -0.055613, 190.657684, -82.336609, -839.773071
1607733823.153285, -0.879719, -8.696189, -3.200748, -1.351292, 0.304801, -0.134399, 189.784180, -82.038116, -840.448242
1607733823.235695, -1.230470, -8.877999, -2.741660, -1.512597, 0.103633, -0.370077, 190.124512, -80.670609, -840.978088
1607733823.323247, -0.166846, -8.459014, -2.727145, -3.832998, 0.993863, -0.129882, 190.265533, -79.397018, -842.076538
1607733823.383136, -0.839317, -6.958747, -3.906888, -5.150590, -1.807137, -1.357463, 191.036804, -75.322525, -845.878418
1607733823.468275, -0.836175, -5.290886, -5.516241, -6.525115, -0.482408, -0.238421, 190.176086, -60.083755, -852.718384
1607733823.553712, -0.593313, -1.448043, -8.241590, -2.999028, -0.849192, 0.267601, 187.910126, -43.727158, -852.970947
1607733823.636353, -1.967435, 2.745102, -9.442582, -0.857060, -0.127834, 0.107174, 186.429535, -32.236725, -845.771973
1607733823.718338, -0.459537, 6.359449, -10.149170, -0.727135, 0.575531, 0.594073, 189.721680, -28.908127, -838.290100
1607733823.801115, -0.348506, 7.185598, -9.088689, 0.231003, 0.227737, 0.305938, 191.634125, -31.760971, -833.606812
1607733823.884628, -1.183633, 6.190508, -7.865401, 0.575190, -0.218595, -0.275906, 189.964691, -34.300705, -832.077148
1607733823.9695501, -1.066617, 5.342811, -7.318027, 0.465186, 0.110148, 0.047099, 188.588089, -35.479645, -832.877991
1607733824.067809, -0.362273, 6.475867, -8.409933, 1.242718, 1.080756, 0.671589, 187.501648, -35.688385, -832.997070
1607733824.163557, 0.046388, 5.102642, -8.864532, 2.177109, 0.037937, -0.142672, 188.026123, -36.306534, -834.623779
1607733824.253458, 1.385195, 4.012981, -10.312126, 2.923833, 0.480039, -0.028352, 190.347427, -37.343735, -836.632690
1607733824.341466, 0.654365, 2.422782, -10.417171, 4.906098, 0.087820, -0.321864, 192.198013, -38.452042, -843.522583
1607733824.426806, -0.214431, -1.221641, -10.903643, 3.412615, 0.254097, -0.460918, 190.202621, -53.752335, -854.758240
1607733824.540525, 0.906654, -5.743690, -8.266879, 1.920644, -0.282550, -0.020528, 191.804367, -65.602005, -852.200012
1607733824.6293159, 1.207426, -6.911013, -7.384017, 1.389905, 0.119168, -0.015228, 193.555801, -71.600082, -846.311890
1607733824.718358, 0.737713, -8.151808, -4.368520, 0.631337, 0.108781, 0.100605, 193.224533, -73.691528, -846.020447
1607733824.778314, 0.470610, -7.473500, -5.702839, 0.464146, 0.206846, 0.134806, 192.446838, -76.222412, -843.237183
1607733824.862761, -0.104148, -8.251915, -4.491373, 0.001628, 0.187051, 0.031280, 192.122406, -77.319916, -842.606201
1607733824.9882221, 0.233435, -8.565556, -3.979014, -0.005173, 0.202069, 0.042402, 192.371735, -77.844116, -842.484985
1607733825.0880132, 0.499640, -8.939051, -3.520674, 0.167347, 0.107066, 0.154900, 191.336594, -77.326904, -842.096558
1607733825.1772032, 0.304662, -9.127146, -3.424157, -0.656095, 0.709203, -0.060655, 192.627106, -77.045197, -842.121704
1607733825.267235, 0.921618, -8.330176, -3.613598, -1.513823, 0.024519, -0.069402, 192.798645, -76.542374, -842.077576
1607733825.35588, 0.823007, -8.048109, -3.359813, -2.429024, -0.265269, -0.118201, 192.877136, -74.799377, -842.622742
1607733825.4438338, 0.482282, -7.382670, -5.609614, -2.679544, -0.113417, 0.135469, 193.186478, -69.291794, -847.152588
1607733825.532619, 0.341623, -5.214272, -7.502381, -2.620802, 0.131807, 0.030872, 191.313858, -62.944077, -850.673401
1607733825.620922, 0.101005, -3.414132, -8.073547, -3.947408, -0.057411, -0.157754, 189.781494, -55.628036, -853.352661
1607733825.709266, 0.539743, 0.523432, -10.601525, -1.765669, 0.263078, -0.092679, 187.978851, -47.024658, -852.114319
1607733825.794849, -0.831536, 3.067721, -10.086622, -0.466763, 0.373801, -0.145764, 185.621231, -37.189758, -844.396606
1607733825.907017, -0.299126, 4.849755, -11.588535, 0.495016, 0.429879, 0.092286, 186.769501, -36.041122, -838.004028
1607733825.991986, -0.265906, 3.438223, -9.492411, 1.024163, -0.087121, -0.039211, 187.360123, -37.094223, -838.348572
1607733826.079706, -0.458939, 3.346495, -9.208698, 0.636007, 0.707052, 0.282927, 189.183441, -39.860687, -840.476807
1607733826.166265, -0.154276, 2.894440, -9.253889, 0.417824, 0.316492, 0.067137, 188.822754, -40.704926, -840.782898
1607733826.252362, 0.214281, 2.071284, -9.309105, 0.564386, 0.354615, -0.044659, 190.304764, -40.940964, -841.810669
1607733826.340698, 0.178218, 2.099565, -10.058789, 0.393858, -0.082851, -0.142274, 190.586548, -40.521240, -841.799988
1607733826.426683, 0.274136, 1.022474, -9.392004, 0.617854, 0.331486, 0.364154, 191.421143, -41.064575, -842.570801
1607733826.512963, 0.186000, 1.446098, -10.124031, -0.121035, 0.631525, 0.424753, 192.512756, -42.259735, -843.036072
1607733826.600529, 0.675614, 0.482432, -9.450812, 0.044298, 0.298344, 1.514328, 193.781845, -42.328293, -842.658325
1607733826.689585, 2.352602, 0.667084, -9.469666, -0.408636, -0.649454, 3.843848, 194.681808, -42.684814, -842.044983
1607733826.7501922, 2.031630, 0.949151, -11.355100, -0.893858, -1.424652, 4.461504, 194.412399, -53.994125, -842.792480
1607733826.8446798, -1.951125, 0.998532, -10.680234, -0.479707, 0.350202, 3.426710, 185.674103, -65.062866, -846.406006
1607733826.93441, -1.146074, 0.911892, -9.347113, 0.287657, 0.748926, 1.602346, 175.687241, -67.244812, -848.348267
1607733827.025676, 0.138415, 1.726369, -10.086772, 0.165894, -0.265510, 1.001012, 166.543457, -62.800766, -851.200745
1607733827.137788, 0.879271, 1.488146, -9.578752, 0.437488, 0.150058, 0.688104, 161.312607, -58.459427, -856.871521
1607733827.2215009, -0.266654, 0.717512, -9.828647, 0.123106, 0.112023, 0.671409, 158.335999, -50.184006, -869.436401
1607733827.3075151, -0.009128, 0.929998, -9.580398, 0.222492, 0.054239, 0.496102, 161.221603, -53.331909, -895.558472
1607733827.393866, -0.019752, 0.753575, -9.842862, 0.163652, 0.100700, 0.156523, 168.687668, -64.057770, -904.493835
1607733827.481069, -0.125097, 0.478541, -9.718962, 0.206399, 0.090202, 0.195597, 173.130737, -76.488892, -902.172668
1607733827.566777, 0.258275, 0.437391, -9.770737, 0.155425, 0.279805, 0.017927, 175.702438, -85.803619, -893.781616
1607733827.651826, 0.048333, 0.312593, -9.749040, -0.029088, -0.073804, 0.092448, 175.987946, -90.229889, -883.464844
1607733827.7349548, 0.130185, 0.151284, -9.781511, 0.189821, 0.286769, -0.030422, 176.391495, -90.929382, -874.987488
1607733827.818233, 0.412102, 0.380678, -9.860370, 0.163877, 0.190054, -0.209741, 175.417664, -89.469116, -868.553955
1607733827.901523, 0.206500, 0.103699, -9.686341, 0.290484, 0.043515, -0.799649, 174.959473, -86.792786, -864.093018
1607733827.985852, -0.076614, 0.119411, -10.603770, 0.663655, -0.639728, -3.047517, 174.442429, -82.606216, -861.373169
1607733828.07022, -0.957232, 0.709731, -9.675867, 0.999611, -1.052458, -4.959766, 172.072800, -80.810150, -861.029297
1607733828.1550941, -1.508796, -0.342072, -11.533019, -0.370942, -0.586787, -6.255152, 174.060486, -79.916168, -859.647278
1607733828.239986, -1.242142, -0.174777, -9.087791, -0.840006, -0.499565, -6.678330, 180.760605, -77.779724, -857.793213
1607733828.324425, -2.822315, 0.697162, -7.877522, 1.355765, 1.805973, -5.485470, 182.403793, -73.549149, -857.714600
1607733828.3817859, 0.102801, -0.773626, -7.866898, 0.381654, -1.700924, -4.905066, 188.243683, -55.031082, -853.614380
1607733828.466127, 0.799364, -3.624073, -8.693346, -0.753033, -0.367172, -2.487928, 178.740005, -43.072021, -854.457397
1607733828.552036, -0.712275, -2.715025, -9.274389, -0.555482, -0.445007, -2.089135, 170.901917, -36.175110, -854.981445
1607733828.6381369, -1.170316, -1.101931, -9.923517, -0.565740, 0.137859, -1.549591, 166.158981, -31.002960, -853.585510
1607733828.725034, -0.002095, 0.285060, -9.882516, -0.096555, 0.376708, -0.909095, 164.017838, -28.653870, -854.233276
1607733828.810801, 0.452354, 0.341772, -9.790788, -0.259173, 0.199875, -0.552524, 160.344742, -29.656570, -854.904724
1607733828.8959851, 0.189441, -0.332046, -9.502586, -0.046366, 0.184449, -0.296252, 154.424835, -31.636032, -853.855225
1607733829.01177, 0.260070, -0.085144, -9.867852, -0.022007, 0.350961, 0.071618, 149.639709, -30.088989, -851.944153
1607733829.097033, 1.275661, -0.120608, -9.770737, 0.181441, 0.217441, 0.000544, 148.054550, -29.818466, -851.350342
1607733829.18323, 1.385345, 0.020500, -9.633220, 0.197358, 0.133199, 0.127849, 147.755081, -28.894180, -850.445679
1607733829.269247, 1.482759, 0.211288, -9.412953, -0.307486, 0.039908, 0.630381, 146.954926, -28.070831, -849.953003
1607733829.355976, 1.184531, -0.001047, -10.056096, -0.368890, 0.024679, 1.569388, 147.324081, -27.395294, -850.181152
1607733829.442151, 1.422006, -0.058957, -9.548525, -0.986365, 0.575646, 2.681466, 148.086243, -25.880707, -849.389404
1607733829.529033, 1.777096, 0.931344, -9.091532, -0.488289, 0.306050, 3.920988, 155.923721, -20.024368, -848.102661
1607733829.615741, 3.351433, 2.799271, -9.543587, -1.315982, -0.023311, 5.270282, 167.281967, -18.637634, -847.368774
1607733829.702952, 3.746926, 2.584092, -9.130887, -0.612253, -0.774765, 4.268336, 181.358002, -21.294937, -846.382935
1607733829.7899342, 2.589928, 3.993079, -9.708488, -0.728380, -0.636395, 5.109955, 194.915283, -31.654068, -846.046082
1607733829.878886, 2.219425, 1.599925, -8.555231, -0.199647, -0.320274, 3.761276, 198.039108, -58.451065, -845.952515
1607733829.966341, 1.472135, 1.318307, -9.645041, -0.326684, -0.150105, 3.007999, 196.471268, -69.015060, -847.703003
1607733830.0539432, -0.031723, 1.447145, -9.484181, -0.712245, -0.599229, 1.222478, 190.846802, -73.137329, -846.257202
1607733830.141055, 0.645088, 1.032799, -9.225607, -0.146972, -0.040869, 1.598243, 186.003799, -72.853546, -846.847656
1607733830.2289991, 0.576404, 1.555633, -9.194034, 0.349084, -0.014785, 1.235255, 180.465256, -68.376877, -849.987976
1607733830.320086, 0.847398, 1.543362, -10.386945, 0.129970, -0.074838, 0.460511, 175.533066, -62.557693, -862.459961
1607733830.41041, 0.919673, 0.964115, -9.941324, -0.099786, 0.157873, 0.489546, 176.143326, -65.329758, -873.987000
1607733830.5009909, 0.637456, 0.841562, -9.811738, -0.045721, 0.154734, 0.271639, 175.504486, -75.116287, -878.715820
1607733830.592427, 0.624887, 1.074099, -9.871892, 0.073464, 0.193965, 0.034218, 175.411652, -82.622147, -870.248352
1607733830.686008, 0.723498, 1.012747, -9.861118, 0.205287, 0.011643, -0.144581, 173.977295, -80.988831, -864.343323
1607733830.778533, 0.948702, 0.738462, -9.713875, 0.377563, 0.136689, -1.313393, 175.245300, -77.800766, -862.248291
1607733830.869981, 0.444124, 1.217302, -9.899425, 0.701722, -1.292999, -3.321422, 175.354813, -75.339081, -862.497559
1607733830.9619598, -0.297629, 0.777667, -9.365818, 1.316379, -1.153272, -4.767583, 175.525085, -74.454132, -863.070068
1607733831.054481, -1.124377, 0.662296, -9.528923, 0.540158, 0.380157, -3.880898, 174.886017, -73.828476, -863.779785
1607733831.1486158, -0.641646, 1.187374, -8.915558, 2.150289, -1.604694, -3.853121, 182.765244, -71.242615, -860.300415
1607733831.240071, 0.179415, -2.791041, -8.745270, -0.237283, 0.149996, -2.621950, 189.086823, -68.344116, -855.258545
1607733831.3318682, 0.138714, -3.140893, -9.377340, -0.298019, -0.171784, -2.379332, 188.641708, -63.292847, -853.503174
1607733831.425457, 0.701800, -2.040907, -9.751284, -0.103038, -0.222609, -2.030249, 186.526657, -50.130661, -851.762512
1607733831.519624, 1.145476, -1.223587, -9.356540, 0.361677, -0.462224, -1.897186, 185.051224, -40.956207, -850.561646
1607733831.612033, 0.781108, -0.572663, -9.560646, -0.152688, -0.162296, -1.673235, 181.841141, -34.765884, -850.094910
1607733831.7056131, 1.009904, -0.954688, -9.735722, -0.038211, 0.020772, -1.262504, 176.696030, -30.082184, -850.450745
1607733831.798483, 1.162235, -0.481983, -9.338584, 0.139823, 0.032502, -0.772965, 174.185791, -29.042709, -851.072754
1607733831.892352, 1.508497, -0.116568, -9.917681, 0.109382, 0.115687, -0.318380, 171.962418, -27.853760, -851.302063
1607733831.985249, 1.769465, -0.217573, -10.013150, 0.227988, 0.213399, 0.130008, 166.525314, -26.977432, -852.376770
1607733832.078224, 2.132934, -0.154426, -9.762507, 0.106713, 0.144268, 0.627515, 162.832184, -27.159332, -853.458130
1607733832.173265, 2.374898, -0.398934, -9.629180, 0.240103, -0.218105, 1.830728, 162.800842, -27.508347, -854.617920
1607733832.267297, 1.631648, -0.443675, -10.078242, 0.445036, -0.010635, 3.153945, 167.055786, -27.744629, -855.431213
1607733832.3597279, 0.838270, -1.173907, -9.581445, 0.708152, 0.525997, 3.047894, 172.133789, -30.267212, -857.412109
1607733832.4540992, 0.762703, -2.359785, -12.680889, 0.262765, 1.002166, 2.043303, 183.069702, -38.383347, -856.914062
1607733832.54817, -0.693121, -2.948010, -10.074801, 0.984924, 0.539901, 1.162750, 188.071014, -45.224564, -855.077454
1607733832.642806, 0.202759, -3.265841, -9.128642, -0.309044, 1.116851, -0.197653, 191.809464, -51.190582, -852.974731
1607733832.7363548, 0.246603, -4.424335, -8.343643, 0.166337, -0.926706, 0.023244, 194.293289, -55.552200, -850.571777
1607733832.8353791, -0.991948, -3.784934, -9.180117, -0.391992, -1.114296, 0.409531, 194.352295, -54.913116, -851.105774
1607733832.930542, 0.538995, -3.317615, -9.321675, -0.249910, 0.295847, 0.248701, 190.969391, -54.024292, -852.774414
1607733833.024945, -0.729483, -5.317073, -9.674370, -1.448510, 0.031228, -0.127976, 189.048462, -52.916214, -853.349487
1607733833.1196609, 0.022146, -2.593369, -11.102063, -0.612342, 0.912012, 0.269943, 190.956009, -48.960236, -850.781128
1607733833.214939, -0.405219, -1.981052, -9.937433, 0.123809, -0.085363, 0.315611, 191.018967, -48.651337, -850.821350
1607733833.363679, 0.102202, -2.571821, -9.081357, 0.285893, 0.049032, 0.194201, 191.394714, -49.746857, -850.148315
1607733833.46102, -0.048483, -2.153734, -8.995165, 0.093725, -0.132377, 0.216375, 192.409683, -49.732330, -850.174011
1607733833.561382, 0.731429, -2.388216, -9.185355, , , , 192.322937, -50.366486, -849.054199
1607733833.664773, , , , , , , , ,